Folder: Ag-nanoparticles (part 2)

File: 2ml_diluted4.txt
'RawData - Storage 160904 - 2ml_diluted4.spc'
'Wavelength nm.','Abs.'
300.00,0.078
302.00,0.073
304.00,0.067
306.00,0.062
308.00,0.056
310.00,0.051
312.00,0.047
314.00,0.043
316.00,0.040
318.00,0.037
320.00,0.036
322.00,0.035
324.00,0.035
326.00,0.036
328.00,0.038
330.00,0.041
332.00,0.045
334.00,0.051
336.00,0.059
338.00,0.069
340.00,0.080
342.00,0.091
344.00,0.103
346.00,0.114
348.00,0.124
350.00,0.132
352.00,0.140
354.00,0.148
356.00,0.155
358.00,0.162
360.00,0.169
362.00,0.177
364.00,0.185
366.00,0.194
368.00,0.203
370.00,0.212
372.00,0.221
374.00,0.231
376.00,0.239
378.00,0.248
380.00,0.257
382.00,0.265
384.00,0.274
386.00,0.282
388.00,0.291
390.00,0.300
392.00,0.310
394.00,0.320
396.00,0.330
398.00,0.341
400.00,0.351
402.00,0.362
404.00,0.374
406.00,0.384
408.00,0.395
410.00,0.406
412.00,0.415
414.00,0.424
416.00,0.432
418.00,0.438
420.00,0.443
422.00,0.447
424.00,0.450
426.00,0.451
428.00,0.451
430.00,0.449
432.00,0.446
434.00,0.441
436.00,0.435
438.00,0.428
440.00,0.421
442.00,0.411
444.00,0.402
446.00,0.391
448.00,0.379
450.00,0.367
452.00,0.355
454.00,0.342
456.00,0.329
458.00,0.316
460.00,0.302
462.00,0.290
464.00,0.277
466.00,0.265
468.00,0.253
470.00,0.241
472.00,0.231
474.00,0.220
476.00,0.210
478.00,0.200
480.00,0.191
482.00,0.183
484.00,0.175
486.00,0.167
488.00,0.159
490.00,0.153
492.00,0.146
494.00,0.140
496.00,0.134
498.00,0.129
500.00,0.124
502.00,0.119
504.00,0.114
506.00,0.110
508.00,0.106
510.00,0.102
512.00,0.098
514.00,0.094
516.00,0.091
518.00,0.088
520.00,0.085
522.00,0.082
524.00,0.079
526.00,0.076
528.00,0.074
530.00,0.071
532.00,0.069
534.00,0.067
536.00,0.065
538.00,0.063
540.00,0.061
542.00,0.059
544.00,0.058
546.00,0.056
548.00,0.055
550.00,0.053
552.00,0.052
554.00,0.051
556.00,0.050
558.00,0.048
560.00,0.047
562.00,0.046
564.00,0.045
566.00,0.044
568.00,0.044
570.00,0.043
572.00,0.042
574.00,0.041
576.00,0.040
578.00,0.040
580.00,0.039
582.00,0.038
584.00,0.038
586.00,0.037
588.00,0.036
590.00,0.036
592.00,0.035
594.00,0.035
596.00,0.034
598.00,0.033
600.00,0.033
602.00,0.032
604.00,0.032
606.00,0.031
608.00,0.031
610.00,0.030
612.00,0.030
614.00,0.030
616.00,0.029
618.00,0.029
620.00,0.028
622.00,0.028
624.00,0.027
626.00,0.027
628.00,0.027
630.00,0.026
632.00,0.026
634.00,0.026
636.00,0.025
638.00,0.025
640.00,0.025
642.00,0.025
644.00,0.024
646.00,0.024
648.00,0.024
650.00,0.024
652.00,0.023
654.00,0.023
656.00,0.023
658.00,0.023
660.00,0.023
662.00,0.022
664.00,0.022
666.00,0.022
668.00,0.022
670.00,0.021
672.00,0.021
674.00,0.021
676.00,0.021
678.00,0.021
680.00,0.020
682.00,0.020
684.00,0.020
686.00,0.020
688.00,0.020
690.00,0.020
692.00,0.019
694.00,0.019
696.00,0.019
698.00,0.019
700.00,0.019
702.00,0.018
704.00,0.018
706.00,0.018
708.00,0.018
710.00,0.018
712.00,0.018
714.00,0.017
716.00,0.017
718.00,0.017
720.00,0.017
722.00,0.017
724.00,0.017
726.00,0.016
728.00,0.016
730.00,0.016
732.00,0.016
734.00,0.016
736.00,0.016
738.00,0.016
740.00,0.016
742.00,0.015
744.00,0.015
746.00,0.015
748.00,0.015
750.00,0.015
752.00,0.015
754.00,0.015
756.00,0.015
758.00,0.014
760.00,0.014
762.00,0.014
764.00,0.014
766.00,0.014
768.00,0.014
770.00,0.014
772.00,0.014
774.00,0.014
776.00,0.014
778.00,0.013
780.00,0.013
782.00,0.013
784.00,0.013
786.00,0.013
788.00,0.013
790.00,0.013
792.00,0.013
794.00,0.013
796.00,0.013
798.00,0.013
800.00,0.013