Folder: Ag-nanoparticles

File: 0.5ml.txt
'RawData - Storage 161900 - 0.5ml.spc'
'Wavelength nm.','Abs.'
300.00,0.408
302.00,0.377
304.00,0.344
306.00,0.316
308.00,0.285
310.00,0.257
312.00,0.234
314.00,0.214
316.00,0.198
318.00,0.185
320.00,0.177
322.00,0.172
324.00,0.173
326.00,0.178
328.00,0.187
330.00,0.201
332.00,0.223
334.00,0.253
336.00,0.292
338.00,0.342
340.00,0.397
342.00,0.458
344.00,0.516
346.00,0.570
348.00,0.617
350.00,0.657
352.00,0.691
354.00,0.724
356.00,0.755
358.00,0.789
360.00,0.824
362.00,0.861
364.00,0.900
366.00,0.942
368.00,0.984
370.00,1.028
372.00,1.072
374.00,1.114
376.00,1.161
378.00,1.202
380.00,1.246
382.00,1.286
384.00,1.328
386.00,1.372
388.00,1.419
390.00,1.472
392.00,1.521
394.00,1.574
396.00,1.631
398.00,1.686
400.00,1.747
402.00,1.807
404.00,1.872
406.00,1.933
408.00,2.004
410.00,2.062
412.00,2.120
414.00,2.176
416.00,2.229
418.00,2.271
420.00,2.314
422.00,2.349
424.00,2.389
426.00,2.406
428.00,2.417
430.00,2.431
432.00,2.422
434.00,2.423
436.00,2.407
438.00,2.388
440.00,2.362
442.00,2.331
444.00,2.290
446.00,2.243
448.00,2.191
450.00,2.140
452.00,2.083
454.00,2.020
456.00,1.956
458.00,1.886
460.00,1.818
462.00,1.748
464.00,1.677
466.00,1.607
468.00,1.539
470.00,1.471
472.00,1.408
474.00,1.343
476.00,1.281
478.00,1.223
480.00,1.167
482.00,1.114
484.00,1.061
486.00,1.012
488.00,0.965
490.00,0.922
492.00,0.880
494.00,0.842
496.00,0.805
498.00,0.771
500.00,0.738
502.00,0.708
504.00,0.679
506.00,0.652
508.00,0.625
510.00,0.600
512.00,0.577
514.00,0.555
516.00,0.533
518.00,0.514
520.00,0.494
522.00,0.476
524.00,0.459
526.00,0.443
528.00,0.427
530.00,0.412
532.00,0.398
534.00,0.384
536.00,0.371
538.00,0.359
540.00,0.347
542.00,0.336
544.00,0.326
546.00,0.315
548.00,0.306
550.00,0.297
552.00,0.288
554.00,0.280
556.00,0.272
558.00,0.265
560.00,0.258
562.00,0.251
564.00,0.244
566.00,0.238
568.00,0.232
570.00,0.226
572.00,0.221
574.00,0.215
576.00,0.210
578.00,0.206
580.00,0.201
582.00,0.196
584.00,0.192
586.00,0.188
588.00,0.184
590.00,0.180
592.00,0.177
594.00,0.173
596.00,0.170
598.00,0.167
600.00,0.164
602.00,0.161
604.00,0.158
606.00,0.155
608.00,0.153
610.00,0.150
612.00,0.148
614.00,0.145
616.00,0.143
618.00,0.141
620.00,0.139
622.00,0.136
624.00,0.134
626.00,0.132
628.00,0.130
630.00,0.128
632.00,0.127
634.00,0.125
636.00,0.123
638.00,0.121
640.00,0.119
642.00,0.117
644.00,0.116
646.00,0.114
648.00,0.113
650.00,0.111
652.00,0.110
654.00,0.108
656.00,0.107
658.00,0.106
660.00,0.104
662.00,0.103
664.00,0.102
666.00,0.101
668.00,0.099
670.00,0.098
672.00,0.097
674.00,0.096
676.00,0.095
678.00,0.094
680.00,0.092
682.00,0.091
684.00,0.090
686.00,0.089
688.00,0.088
690.00,0.087
692.00,0.086
694.00,0.085
696.00,0.084
698.00,0.083
700.00,0.082
702.00,0.081
704.00,0.080
706.00,0.079
708.00,0.078
710.00,0.077
712.00,0.077
714.00,0.076
716.00,0.075
718.00,0.074
720.00,0.073
722.00,0.073
724.00,0.072
726.00,0.071
728.00,0.071
730.00,0.070
732.00,0.069
734.00,0.069
736.00,0.068
738.00,0.067
740.00,0.067
742.00,0.066
744.00,0.065
746.00,0.064
748.00,0.064
750.00,0.063
752.00,0.062
754.00,0.062
756.00,0.061
758.00,0.060
760.00,0.059
762.00,0.059
764.00,0.058
766.00,0.057
768.00,0.057
770.00,0.056
772.00,0.056
774.00,0.055
776.00,0.054
778.00,0.054
780.00,0.053
782.00,0.053
784.00,0.052
786.00,0.052
788.00,0.051
790.00,0.051
792.00,0.050
794.00,0.050
796.00,0.050
798.00,0.049
800.00,0.049

File: 1.5ml_diluted2.txt
'RawData - Storage 162117 - 1.5ml_diluted2.spc'
'Wavelength nm.','Abs.'
300.00,0.127
302.00,0.117
304.00,0.108
306.00,0.099
308.00,0.090
310.00,0.081
312.00,0.074
314.00,0.068
316.00,0.063
318.00,0.059
320.00,0.056
322.00,0.055
324.00,0.055
326.00,0.057
328.00,0.059
330.00,0.064
332.00,0.070
334.00,0.079
336.00,0.091
338.00,0.107
340.00,0.124
342.00,0.141
344.00,0.160
346.00,0.176
348.00,0.189
350.00,0.202
352.00,0.212
354.00,0.223
356.00,0.232
358.00,0.242
360.00,0.252
362.00,0.263
364.00,0.275
366.00,0.287
368.00,0.300
370.00,0.313
372.00,0.327
374.00,0.340
376.00,0.353
378.00,0.366
380.00,0.378
382.00,0.391
384.00,0.404
386.00,0.418
388.00,0.431
390.00,0.446
392.00,0.462
394.00,0.478
396.00,0.494
398.00,0.512
400.00,0.530
402.00,0.548
404.00,0.568
406.00,0.586
408.00,0.606
410.00,0.625
412.00,0.642
414.00,0.659
416.00,0.674
418.00,0.689
420.00,0.700
422.00,0.711
424.00,0.719
426.00,0.725
428.00,0.729
430.00,0.730
432.00,0.730
434.00,0.727
436.00,0.722
438.00,0.714
440.00,0.706
442.00,0.694
444.00,0.682
446.00,0.668
448.00,0.652
450.00,0.635
452.00,0.618
454.00,0.598
456.00,0.579
458.00,0.558
460.00,0.537
462.00,0.516
464.00,0.495
466.00,0.474
468.00,0.454
470.00,0.434
472.00,0.415
474.00,0.396
476.00,0.379
478.00,0.361
480.00,0.345
482.00,0.330
484.00,0.314
486.00,0.300
488.00,0.287
490.00,0.274
492.00,0.262
494.00,0.251
496.00,0.240
498.00,0.230
500.00,0.221
502.00,0.212
504.00,0.204
506.00,0.196
508.00,0.188
510.00,0.181
512.00,0.174
514.00,0.168
516.00,0.162
518.00,0.156
520.00,0.150
522.00,0.145
524.00,0.140
526.00,0.135
528.00,0.130
530.00,0.126
532.00,0.122
534.00,0.118
536.00,0.114
538.00,0.110
540.00,0.107
542.00,0.103
544.00,0.100
546.00,0.097
548.00,0.095
550.00,0.092
552.00,0.089
554.00,0.087
556.00,0.085
558.00,0.083
560.00,0.080
562.00,0.079
564.00,0.077
566.00,0.075
568.00,0.073
570.00,0.072
572.00,0.070
574.00,0.069
576.00,0.067
578.00,0.066
580.00,0.065
582.00,0.063
584.00,0.062
586.00,0.061
588.00,0.060
590.00,0.059
592.00,0.058
594.00,0.056
596.00,0.055
598.00,0.054
600.00,0.054
602.00,0.053
604.00,0.052
606.00,0.051
608.00,0.050
610.00,0.049
612.00,0.048
614.00,0.047
616.00,0.047
618.00,0.046
620.00,0.045
622.00,0.044
624.00,0.044
626.00,0.043
628.00,0.042
630.00,0.042
632.00,0.041
634.00,0.041
636.00,0.040
638.00,0.039
640.00,0.039
642.00,0.038
644.00,0.038
646.00,0.037
648.00,0.037
650.00,0.037
652.00,0.036
654.00,0.036
656.00,0.035
658.00,0.035
660.00,0.035
662.00,0.034
664.00,0.034
666.00,0.033
668.00,0.033
670.00,0.033
672.00,0.032
674.00,0.032
676.00,0.032
678.00,0.031
680.00,0.031
682.00,0.031
684.00,0.030
686.00,0.030
688.00,0.030
690.00,0.029
692.00,0.029
694.00,0.029
696.00,0.028
698.00,0.028
700.00,0.028
702.00,0.028
704.00,0.027
706.00,0.027
708.00,0.027
710.00,0.026
712.00,0.026
714.00,0.026
716.00,0.026
718.00,0.025
720.00,0.025
722.00,0.025
724.00,0.025
726.00,0.024
728.00,0.024
730.00,0.024
732.00,0.024
734.00,0.024
736.00,0.023
738.00,0.023
740.00,0.023
742.00,0.023
744.00,0.023
746.00,0.022
748.00,0.022
750.00,0.022
752.00,0.022
754.00,0.022
756.00,0.021
758.00,0.021
760.00,0.021
762.00,0.021
764.00,0.021
766.00,0.020
768.00,0.020
770.00,0.020
772.00,0.020
774.00,0.020
776.00,0.020
778.00,0.020
780.00,0.019
782.00,0.019
784.00,0.019
786.00,0.019
788.00,0.019
790.00,0.019
792.00,0.019
794.00,0.019
796.00,0.018
798.00,0.018
800.00,0.018

File: 1ml_diluted1.txt
'RawData - Storage 161250 - 1ml_diluted1.spc'
'Wavelength nm.','Abs.'
300.00,0.311
302.00,0.289
304.00,0.265
306.00,0.243
308.00,0.219
310.00,0.199
312.00,0.182
314.00,0.167
316.00,0.155
318.00,0.145
320.00,0.138
322.00,0.134
324.00,0.134
326.00,0.138
328.00,0.145
330.00,0.155
332.00,0.170
334.00,0.191
336.00,0.219
338.00,0.254
340.00,0.294
342.00,0.335
344.00,0.375
346.00,0.411
348.00,0.440
350.00,0.468
352.00,0.490
354.00,0.510
356.00,0.531
358.00,0.552
360.00,0.575
362.00,0.599
364.00,0.624
366.00,0.652
368.00,0.679
370.00,0.708
372.00,0.736
374.00,0.765
376.00,0.791
378.00,0.819
380.00,0.845
382.00,0.871
384.00,0.897
386.00,0.925
388.00,0.953
390.00,0.983
392.00,1.017
394.00,1.051
396.00,1.087
398.00,1.124
400.00,1.162
402.00,1.200
404.00,1.242
406.00,1.282
408.00,1.324
410.00,1.365
412.00,1.405
414.00,1.443
416.00,1.479
418.00,1.515
420.00,1.543
422.00,1.570
424.00,1.594
426.00,1.612
428.00,1.627
430.00,1.637
432.00,1.642
434.00,1.643
436.00,1.637
438.00,1.630
440.00,1.618
442.00,1.602
444.00,1.582
446.00,1.558
448.00,1.532
450.00,1.504
452.00,1.474
454.00,1.439
456.00,1.403
458.00,1.365
460.00,1.325
462.00,1.285
464.00,1.244
466.00,1.202
468.00,1.161
470.00,1.119
472.00,1.079
474.00,1.037
476.00,0.997
478.00,0.958
480.00,0.920
482.00,0.884
484.00,0.847
486.00,0.812
488.00,0.779
490.00,0.747
492.00,0.716
494.00,0.688
496.00,0.660
498.00,0.634
500.00,0.609
502.00,0.585
504.00,0.563
506.00,0.541
508.00,0.519
510.00,0.500
512.00,0.481
514.00,0.463
516.00,0.446
518.00,0.430
520.00,0.414
522.00,0.399
524.00,0.385
526.00,0.371
528.00,0.359
530.00,0.346
532.00,0.335
534.00,0.323
536.00,0.313
538.00,0.303
540.00,0.293
542.00,0.284
544.00,0.276
546.00,0.267
548.00,0.260
550.00,0.252
552.00,0.245
554.00,0.238
556.00,0.231
558.00,0.225
560.00,0.219
562.00,0.213
564.00,0.207
566.00,0.202
568.00,0.197
570.00,0.193
572.00,0.188
574.00,0.184
576.00,0.180
578.00,0.176
580.00,0.172
582.00,0.168
584.00,0.165
586.00,0.162
588.00,0.158
590.00,0.155
592.00,0.152
594.00,0.149
596.00,0.147
598.00,0.144
600.00,0.142
602.00,0.139
604.00,0.137
606.00,0.134
608.00,0.132
610.00,0.130
612.00,0.128
614.00,0.125
616.00,0.123
618.00,0.121
620.00,0.119
622.00,0.118
624.00,0.116
626.00,0.114
628.00,0.112
630.00,0.111
632.00,0.109
634.00,0.107
636.00,0.106
638.00,0.104
640.00,0.103
642.00,0.101
644.00,0.100
646.00,0.098
648.00,0.097
650.00,0.096
652.00,0.095
654.00,0.094
656.00,0.092
658.00,0.091
660.00,0.091
662.00,0.090
664.00,0.089
666.00,0.088
668.00,0.087
670.00,0.086
672.00,0.086
674.00,0.085
676.00,0.084
678.00,0.083
680.00,0.082
682.00,0.082
684.00,0.081
686.00,0.080
688.00,0.080
690.00,0.079
692.00,0.078
694.00,0.077
696.00,0.077
698.00,0.076
700.00,0.075
702.00,0.075
704.00,0.074
706.00,0.073
708.00,0.073
710.00,0.073
712.00,0.072
714.00,0.071
716.00,0.070
718.00,0.070
720.00,0.069
722.00,0.068
724.00,0.068
726.00,0.067
728.00,0.066
730.00,0.066
732.00,0.065
734.00,0.064
736.00,0.064
738.00,0.064
740.00,0.063
742.00,0.063
744.00,0.063
746.00,0.062
748.00,0.062
750.00,0.061
752.00,0.061
754.00,0.061
756.00,0.060
758.00,0.059
760.00,0.059
762.00,0.059
764.00,0.058
766.00,0.058
768.00,0.057
770.00,0.057
772.00,0.057
774.00,0.056
776.00,0.056
778.00,0.055
780.00,0.055
782.00,0.054
784.00,0.054
786.00,0.053
788.00,0.053
790.00,0.052
792.00,0.052
794.00,0.051
796.00,0.051
798.00,0.050
800.00,0.050

File: 1ml_diluted2.txt
'RawData - Storage 161502 - 1ml_diluted2.spc'
'Wavelength nm.','Abs.'
300.00,0.127
302.00,0.119
304.00,0.110
306.00,0.102
308.00,0.092
310.00,0.084
312.00,0.078
314.00,0.073
316.00,0.067
318.00,0.063
320.00,0.061
322.00,0.058
324.00,0.058
326.00,0.060
328.00,0.062
330.00,0.067
332.00,0.072
334.00,0.080
336.00,0.091
338.00,0.104
340.00,0.120
342.00,0.136
344.00,0.151
346.00,0.164
348.00,0.176
350.00,0.187
352.00,0.195
354.00,0.204
356.00,0.211
358.00,0.220
360.00,0.228
362.00,0.237
364.00,0.247
366.00,0.257
368.00,0.268
370.00,0.279
372.00,0.289
374.00,0.300
376.00,0.310
378.00,0.320
380.00,0.330
382.00,0.340
384.00,0.350
386.00,0.361
388.00,0.372
390.00,0.383
392.00,0.396
394.00,0.408
396.00,0.422
398.00,0.436
400.00,0.450
402.00,0.465
404.00,0.481
406.00,0.496
408.00,0.512
410.00,0.527
412.00,0.543
414.00,0.557
416.00,0.571
418.00,0.584
420.00,0.594
422.00,0.604
424.00,0.613
426.00,0.619
428.00,0.624
430.00,0.627
432.00,0.629
434.00,0.628
436.00,0.627
438.00,0.623
440.00,0.618
442.00,0.611
444.00,0.604
446.00,0.595
448.00,0.585
450.00,0.574
452.00,0.562
454.00,0.549
456.00,0.535
458.00,0.520
460.00,0.505
462.00,0.490
464.00,0.474
466.00,0.458
468.00,0.442
470.00,0.426
472.00,0.411
474.00,0.395
476.00,0.380
478.00,0.365
480.00,0.351
482.00,0.337
484.00,0.324
486.00,0.310
488.00,0.298
490.00,0.286
492.00,0.274
494.00,0.263
496.00,0.253
498.00,0.243
500.00,0.234
502.00,0.225
504.00,0.216
506.00,0.208
508.00,0.201
510.00,0.193
512.00,0.186
514.00,0.180
516.00,0.173
518.00,0.167
520.00,0.162
522.00,0.156
524.00,0.151
526.00,0.146
528.00,0.141
530.00,0.137
532.00,0.132
534.00,0.128
536.00,0.124
538.00,0.120
540.00,0.116
542.00,0.113
544.00,0.110
546.00,0.107
548.00,0.104
550.00,0.101
552.00,0.098
554.00,0.095
556.00,0.093
558.00,0.090
560.00,0.088
562.00,0.086
564.00,0.084
566.00,0.082
568.00,0.080
570.00,0.078
572.00,0.076
574.00,0.075
576.00,0.073
578.00,0.072
580.00,0.071
582.00,0.069
584.00,0.068
586.00,0.067
588.00,0.065
590.00,0.064
592.00,0.063
594.00,0.062
596.00,0.061
598.00,0.060
600.00,0.059
602.00,0.059
604.00,0.058
606.00,0.057
608.00,0.056
610.00,0.055
612.00,0.055
614.00,0.054
616.00,0.053
618.00,0.052
620.00,0.052
622.00,0.051
624.00,0.050
626.00,0.050
628.00,0.049
630.00,0.048
632.00,0.048
634.00,0.047
636.00,0.047
638.00,0.046
640.00,0.045
642.00,0.045
644.00,0.044
646.00,0.044
648.00,0.043
650.00,0.043
652.00,0.042
654.00,0.042
656.00,0.042
658.00,0.041
660.00,0.041
662.00,0.040
664.00,0.040
666.00,0.040
668.00,0.039
670.00,0.039
672.00,0.039
674.00,0.038
676.00,0.038
678.00,0.038
680.00,0.038
682.00,0.037
684.00,0.037
686.00,0.037
688.00,0.036
690.00,0.036
692.00,0.036
694.00,0.036
696.00,0.035
698.00,0.035
700.00,0.035
702.00,0.034
704.00,0.034
706.00,0.034
708.00,0.034
710.00,0.033
712.00,0.033
714.00,0.033
716.00,0.033
718.00,0.032
720.00,0.032
722.00,0.032
724.00,0.032
726.00,0.031
728.00,0.031
730.00,0.031
732.00,0.030
734.00,0.030
736.00,0.030
738.00,0.030
740.00,0.029
742.00,0.029
744.00,0.029
746.00,0.029
748.00,0.028
750.00,0.028
752.00,0.028
754.00,0.028
756.00,0.027
758.00,0.027
760.00,0.027
762.00,0.027
764.00,0.026
766.00,0.026
768.00,0.026
770.00,0.026
772.00,0.026
774.00,0.025
776.00,0.025
778.00,0.025
780.00,0.025
782.00,0.025
784.00,0.025
786.00,0.024
788.00,0.024
790.00,0.024
792.00,0.024
794.00,0.024
796.00,0.024
798.00,0.024
800.00,0.024

File: 1ml_diluted3.txt
'RawData - Storage 161645 - 1ml_diluted3.spc'
'Wavelength nm.','Abs.'
300.00,0.065
302.00,0.060
304.00,0.056
306.00,0.053
308.00,0.048
310.00,0.044
312.00,0.041
314.00,0.039
316.00,0.036
318.00,0.035
320.00,0.034
322.00,0.032
324.00,0.032
326.00,0.033
328.00,0.034
330.00,0.036
332.00,0.039
334.00,0.042
336.00,0.046
338.00,0.052
340.00,0.060
342.00,0.067
344.00,0.075
346.00,0.080
348.00,0.086
350.00,0.091
352.00,0.095
354.00,0.099
356.00,0.102
358.00,0.106
360.00,0.110
362.00,0.114
364.00,0.119
366.00,0.123
368.00,0.127
370.00,0.133
372.00,0.137
374.00,0.142
376.00,0.147
378.00,0.152
380.00,0.157
382.00,0.161
384.00,0.166
386.00,0.171
388.00,0.176
390.00,0.181
392.00,0.187
394.00,0.193
396.00,0.199
398.00,0.205
400.00,0.211
402.00,0.218
404.00,0.225
406.00,0.232
408.00,0.240
410.00,0.247
412.00,0.254
414.00,0.261
416.00,0.267
418.00,0.273
420.00,0.278
422.00,0.282
424.00,0.286
426.00,0.289
428.00,0.291
430.00,0.292
432.00,0.293
434.00,0.293
436.00,0.291
438.00,0.290
440.00,0.288
442.00,0.285
444.00,0.281
446.00,0.277
448.00,0.272
450.00,0.267
452.00,0.262
454.00,0.256
456.00,0.249
458.00,0.243
460.00,0.236
462.00,0.228
464.00,0.221
466.00,0.214
468.00,0.206
470.00,0.199
472.00,0.192
474.00,0.185
476.00,0.178
478.00,0.171
480.00,0.165
482.00,0.158
484.00,0.152
486.00,0.146
488.00,0.140
490.00,0.134
492.00,0.129
494.00,0.124
496.00,0.119
498.00,0.115
500.00,0.110
502.00,0.106
504.00,0.103
506.00,0.099
508.00,0.095
510.00,0.092
512.00,0.089
514.00,0.086
516.00,0.083
518.00,0.080
520.00,0.078
522.00,0.075
524.00,0.073
526.00,0.071
528.00,0.069
530.00,0.067
532.00,0.064
534.00,0.063
536.00,0.061
538.00,0.059
540.00,0.057
542.00,0.056
544.00,0.054
546.00,0.053
548.00,0.051
550.00,0.050
552.00,0.048
554.00,0.047
556.00,0.046
558.00,0.045
560.00,0.044
562.00,0.043
564.00,0.042
566.00,0.041
568.00,0.040
570.00,0.039
572.00,0.038
574.00,0.037
576.00,0.037
578.00,0.036
580.00,0.035
582.00,0.035
584.00,0.034
586.00,0.034
588.00,0.033
590.00,0.033
592.00,0.032
594.00,0.032
596.00,0.031
598.00,0.031
600.00,0.031
602.00,0.030
604.00,0.030
606.00,0.029
608.00,0.029
610.00,0.029
612.00,0.028
614.00,0.028
616.00,0.028
618.00,0.027
620.00,0.027
622.00,0.027
624.00,0.026
626.00,0.026
628.00,0.026
630.00,0.025
632.00,0.025
634.00,0.025
636.00,0.025
638.00,0.024
640.00,0.024
642.00,0.024
644.00,0.023
646.00,0.023
648.00,0.023
650.00,0.023
652.00,0.022
654.00,0.022
656.00,0.022
658.00,0.022
660.00,0.022
662.00,0.022
664.00,0.021
666.00,0.021
668.00,0.021
670.00,0.021
672.00,0.021
674.00,0.021
676.00,0.021
678.00,0.021
680.00,0.021
682.00,0.021
684.00,0.020
686.00,0.020
688.00,0.020
690.00,0.020
692.00,0.020
694.00,0.020
696.00,0.020
698.00,0.020
700.00,0.020
702.00,0.019
704.00,0.019
706.00,0.019
708.00,0.019
710.00,0.019
712.00,0.019
714.00,0.019
716.00,0.018
718.00,0.018
720.00,0.018
722.00,0.018
724.00,0.018
726.00,0.018
728.00,0.017
730.00,0.017
732.00,0.017
734.00,0.017
736.00,0.017
738.00,0.017
740.00,0.017
742.00,0.016
744.00,0.016
746.00,0.016
748.00,0.016
750.00,0.016
752.00,0.016
754.00,0.016
756.00,0.015
758.00,0.015
760.00,0.015
762.00,0.015
764.00,0.015
766.00,0.015
768.00,0.015
770.00,0.014
772.00,0.014
774.00,0.014
776.00,0.014
778.00,0.014
780.00,0.014
782.00,0.014
784.00,0.014
786.00,0.014
788.00,0.014
790.00,0.013
792.00,0.013
794.00,0.013
796.00,0.013
798.00,0.013
800.00,0.013

File: 2ml_diluted2.txt
'RawData - Storage 160111 - 2ml_diluted2.spc'
'Wavelength nm.','Abs.'
300.00,0.517
302.00,0.478
304.00,0.437
306.00,0.401
308.00,0.363
310.00,0.331
312.00,0.302
314.00,0.278
316.00,0.258
318.00,0.243
320.00,0.232
322.00,0.227
324.00,0.227
326.00,0.232
328.00,0.243
330.00,0.262
332.00,0.290
334.00,0.329
336.00,0.379
338.00,0.443
340.00,0.512
342.00,0.590
344.00,0.664
346.00,0.736
348.00,0.802
350.00,0.855
352.00,0.908
354.00,0.956
356.00,1.000
358.00,1.047
360.00,1.097
362.00,1.148
364.00,1.204
366.00,1.256
368.00,1.319
370.00,1.383
372.00,1.439
374.00,1.505
376.00,1.560
378.00,1.617
380.00,1.674
382.00,1.732
384.00,1.785
386.00,1.844
388.00,1.897
390.00,1.966
392.00,2.017
394.00,2.082
396.00,2.160
398.00,2.214
400.00,2.301
402.00,2.368
404.00,2.433
406.00,2.512
408.00,2.585
410.00,2.640
412.00,2.712
414.00,2.768
416.00,2.814
418.00,2.831
420.00,2.854
422.00,2.906
424.00,2.912
426.00,2.910
428.00,2.903
430.00,2.883
432.00,2.902
434.00,2.857
436.00,2.833
438.00,2.797
440.00,2.726
442.00,2.669
444.00,2.608
446.00,2.527
448.00,2.462
450.00,2.373
452.00,2.299
454.00,2.213
456.00,2.125
458.00,2.036
460.00,1.948
462.00,1.865
464.00,1.780
466.00,1.700
468.00,1.622
470.00,1.545
472.00,1.476
474.00,1.405
476.00,1.339
478.00,1.277
480.00,1.218
482.00,1.164
484.00,1.110
486.00,1.058
488.00,1.010
490.00,0.965
492.00,0.923
494.00,0.883
496.00,0.845
498.00,0.809
500.00,0.775
502.00,0.744
504.00,0.713
506.00,0.684
508.00,0.656
510.00,0.629
512.00,0.604
514.00,0.581
516.00,0.558
518.00,0.537
520.00,0.516
522.00,0.497
524.00,0.479
526.00,0.462
528.00,0.446
530.00,0.431
532.00,0.417
534.00,0.403
536.00,0.390
538.00,0.377
540.00,0.366
542.00,0.355
544.00,0.344
546.00,0.334
548.00,0.325
550.00,0.316
552.00,0.307
554.00,0.299
556.00,0.292
558.00,0.284
560.00,0.277
562.00,0.270
564.00,0.264
566.00,0.258
568.00,0.252
570.00,0.246
572.00,0.241
574.00,0.236
576.00,0.231
578.00,0.226
580.00,0.221
582.00,0.217
584.00,0.213
586.00,0.209
588.00,0.205
590.00,0.201
592.00,0.197
594.00,0.194
596.00,0.190
598.00,0.187
600.00,0.184
602.00,0.181
604.00,0.178
606.00,0.175
608.00,0.173
610.00,0.170
612.00,0.167
614.00,0.165
616.00,0.162
618.00,0.160
620.00,0.158
622.00,0.156
624.00,0.153
626.00,0.151
628.00,0.149
630.00,0.147
632.00,0.145
634.00,0.143
636.00,0.142
638.00,0.140
640.00,0.138
642.00,0.136
644.00,0.135
646.00,0.133
648.00,0.131
650.00,0.130
652.00,0.129
654.00,0.127
656.00,0.126
658.00,0.124
660.00,0.123
662.00,0.121
664.00,0.120
666.00,0.119
668.00,0.118
670.00,0.116
672.00,0.115
674.00,0.114
676.00,0.113
678.00,0.112
680.00,0.111
682.00,0.109
684.00,0.108
686.00,0.107
688.00,0.106
690.00,0.105
692.00,0.104
694.00,0.103
696.00,0.102
698.00,0.101
700.00,0.100
702.00,0.099
704.00,0.098
706.00,0.097
708.00,0.097
710.00,0.096
712.00,0.095
714.00,0.094
716.00,0.093
718.00,0.092
720.00,0.092
722.00,0.091
724.00,0.090
726.00,0.089
728.00,0.088
730.00,0.088
732.00,0.087
734.00,0.086
736.00,0.085
738.00,0.084
740.00,0.084
742.00,0.083
744.00,0.082
746.00,0.082
748.00,0.081
750.00,0.080
752.00,0.079
754.00,0.079
756.00,0.078
758.00,0.077
760.00,0.077
762.00,0.076
764.00,0.076
766.00,0.075
768.00,0.074
770.00,0.074
772.00,0.073
774.00,0.073
776.00,0.072
778.00,0.071
780.00,0.071
782.00,0.070
784.00,0.070
786.00,0.069
788.00,0.069
790.00,0.068
792.00,0.068
794.00,0.067
796.00,0.067
798.00,0.066
800.00,0.066

File: 2ml_diluted3.txt
'RawData - Storage 160641 - 2ml_diluted3.spc'
'Wavelength nm.','Abs.'
300.00,0.181
302.00,0.167
304.00,0.153
306.00,0.141
308.00,0.128
310.00,0.116
312.00,0.106
314.00,0.098
316.00,0.091
318.00,0.086
320.00,0.082
322.00,0.080
324.00,0.080
326.00,0.083
328.00,0.087
330.00,0.094
332.00,0.104
334.00,0.118
336.00,0.135
338.00,0.158
340.00,0.184
342.00,0.211
344.00,0.238
346.00,0.264
348.00,0.287
350.00,0.308
352.00,0.326
354.00,0.343
356.00,0.359
358.00,0.377
360.00,0.394
362.00,0.413
364.00,0.433
366.00,0.454
368.00,0.476
370.00,0.497
372.00,0.519
374.00,0.541
376.00,0.561
378.00,0.582
380.00,0.602
382.00,0.621
384.00,0.642
386.00,0.663
388.00,0.684
390.00,0.706
392.00,0.730
394.00,0.753
396.00,0.778
398.00,0.803
400.00,0.827
402.00,0.853
404.00,0.880
406.00,0.904
408.00,0.930
410.00,0.954
412.00,0.977
414.00,0.997
416.00,1.016
418.00,1.031
420.00,1.044
422.00,1.053
424.00,1.059
426.00,1.061
428.00,1.060
430.00,1.055
432.00,1.047
434.00,1.037
436.00,1.023
438.00,1.006
440.00,0.986
442.00,0.964
444.00,0.940
446.00,0.914
448.00,0.887
450.00,0.858
452.00,0.829
454.00,0.798
456.00,0.766
458.00,0.735
460.00,0.703
462.00,0.673
464.00,0.643
466.00,0.614
468.00,0.586
470.00,0.558
472.00,0.533
474.00,0.507
476.00,0.484
478.00,0.461
480.00,0.440
482.00,0.420
484.00,0.401
486.00,0.382
488.00,0.365
490.00,0.349
492.00,0.334
494.00,0.319
496.00,0.306
498.00,0.293
500.00,0.281
502.00,0.270
504.00,0.259
506.00,0.248
508.00,0.239
510.00,0.229
512.00,0.220
514.00,0.212
516.00,0.204
518.00,0.197
520.00,0.190
522.00,0.183
524.00,0.177
526.00,0.171
528.00,0.165
530.00,0.160
532.00,0.155
534.00,0.150
536.00,0.145
538.00,0.141
540.00,0.136
542.00,0.132
544.00,0.129
546.00,0.125
548.00,0.122
550.00,0.118
552.00,0.115
554.00,0.112
556.00,0.110
558.00,0.107
560.00,0.104
562.00,0.102
564.00,0.099
566.00,0.097
568.00,0.095
570.00,0.093
572.00,0.091
574.00,0.089
576.00,0.087
578.00,0.085
580.00,0.084
582.00,0.082
584.00,0.081
586.00,0.079
588.00,0.078
590.00,0.077
592.00,0.075
594.00,0.074
596.00,0.073
598.00,0.072
600.00,0.071
602.00,0.070
604.00,0.069
606.00,0.068
608.00,0.067
610.00,0.066
612.00,0.065
614.00,0.064
616.00,0.063
618.00,0.062
620.00,0.061
622.00,0.061
624.00,0.060
626.00,0.059
628.00,0.058
630.00,0.058
632.00,0.057
634.00,0.056
636.00,0.055
638.00,0.055
640.00,0.054
642.00,0.053
644.00,0.053
646.00,0.052
648.00,0.052
650.00,0.051
652.00,0.051
654.00,0.050
656.00,0.050
658.00,0.049
660.00,0.049
662.00,0.048
664.00,0.048
666.00,0.047
668.00,0.047
670.00,0.046
672.00,0.046
674.00,0.045
676.00,0.045
678.00,0.045
680.00,0.044
682.00,0.044
684.00,0.043
686.00,0.043
688.00,0.043
690.00,0.042
692.00,0.042
694.00,0.041
696.00,0.041
698.00,0.041
700.00,0.040
702.00,0.040
704.00,0.040
706.00,0.039
708.00,0.039
710.00,0.039
712.00,0.039
714.00,0.038
716.00,0.038
718.00,0.038
720.00,0.038
722.00,0.038
724.00,0.037
726.00,0.037
728.00,0.037
730.00,0.036
732.00,0.036
734.00,0.036
736.00,0.036
738.00,0.035
740.00,0.035
742.00,0.035
744.00,0.035
746.00,0.034
748.00,0.034
750.00,0.034
752.00,0.033
754.00,0.033
756.00,0.033
758.00,0.033
760.00,0.032
762.00,0.032
764.00,0.032
766.00,0.032
768.00,0.031
770.00,0.031
772.00,0.031
774.00,0.031
776.00,0.030
778.00,0.030
780.00,0.030
782.00,0.030
784.00,0.030
786.00,0.030
788.00,0.029
790.00,0.029
792.00,0.029
794.00,0.029
796.00,0.029
798.00,0.029
800.00,0.028